Folder: Absorption_Tauc_plot/Examples

Note: Examples/Bi4Ti3O12.txt
Wavelength (nm),Absorbance
190.0,5.071
190.5,5.301
191.0,5.623
191.5,6.028
192.0,5.902
192.5,5.972
193.0,6.129
193.5,6.923
194.0,7.264
194.5,7.391
195.0,7.206
195.5,7.424
196.0,7.613
196.5,7.911
197.0,8.048
197.5,8.220
198.0,8.342
198.5,8.369
199.0,8.183
199.5,8.147
200.0,8.071
200.5,8.100
201.0,8.018
201.5,8.066
202.0,8.147
202.5,8.058
203.0,8.139
203.5,8.196
204.0,8.317
204.5,8.253
205.0,8.167
205.5,8.195
206.0,8.312
206.5,8.353
207.0,8.518
207.5,8.354
208.0,8.410
208.5,8.438
209.0,8.579
209.5,8.608
210.0,8.617
210.5,8.674
211.0,8.699
211.5,8.695
212.0,8.730
212.5,8.824
213.0,8.847
213.5,8.953
214.0,9.080
214.5,9.162
215.0,9.311
215.5,9.389
216.0,9.523
216.5,9.649
217.0,9.667
217.5,9.842
218.0,9.903
218.5,10.031
219.0,10.103
219.5,10.073
220.0,10.255
220.5,10.269
221.0,10.317
221.5,10.314
222.0,10.350
222.5,10.381
223.0,10.350
223.5,10.343
224.0,10.362
224.5,10.298
225.0,10.223
225.5,10.229
226.0,10.262
226.5,10.306
227.0,10.218
227.5,10.207
228.0,10.170
228.5,10.134
229.0,10.082
229.5,10.058
230.0,10.040
230.5,9.961
231.0,9.901
231.5,9.898
232.0,9.876
232.5,9.829
233.0,9.749
233.5,9.714
234.0,9.730
234.5,9.710
235.0,9.736
235.5,9.685
236.0,9.744
236.5,9.721
237.0,9.670
237.5,9.545
238.0,9.484
238.5,9.491
239.0,9.505
239.5,9.465
240.0,9.399
240.5,9.392
241.0,9.327
241.5,9.367
242.0,9.343
242.5,9.410
243.0,9.326
243.5,9.264
244.0,9.239
244.5,9.266
245.0,9.303
245.5,9.299
246.0,9.307
246.5,9.318
247.0,9.260
247.5,9.262
248.0,9.310
248.5,9.368
249.0,9.391
249.5,9.337
250.0,9.335
250.5,9.329
251.0,9.344
251.5,9.407
252.0,9.437
252.5,9.473
253.0,9.472
253.5,9.503
254.0,9.507
254.5,9.540
255.0,9.558
255.5,9.571
256.0,9.618
256.5,9.596
257.0,9.663
257.5,9.662
258.0,9.757
258.5,9.754
259.0,9.767
259.5,9.779
260.0,9.804
260.5,9.860
261.0,9.894
261.5,9.916
262.0,9.918
262.5,9.934
263.0,9.926
263.5,9.941
264.0,9.941
264.5,10.041
265.0,10.081
265.5,10.082
266.0,10.002
266.5,10.009
267.0,10.050
267.5,10.121
268.0,10.129
268.5,10.098
269.0,10.150
269.5,10.165
270.0,10.217
270.5,10.199
271.0,10.223
271.5,10.223
272.0,10.199
272.5,10.201
273.0,10.197
273.5,10.215
274.0,10.249
274.5,10.243
275.0,10.248
275.5,10.206
276.0,10.271
276.5,10.284
277.0,10.297
277.5,10.230
278.0,10.282
278.5,10.314
279.0,10.366
279.5,10.310
280.0,10.342
280.5,10.335
281.0,10.346
281.5,10.290
282.0,10.283
282.5,10.316
283.0,10.330
283.5,10.324
284.0,10.268
284.5,10.269
285.0,10.309
285.5,10.360
286.0,10.366
286.5,10.369
287.0,10.408
287.5,10.414
288.0,10.426
288.5,10.404
289.0,10.405
289.5,10.418
290.0,10.422
290.5,10.467
291.0,10.469
291.5,10.522
292.0,10.534
292.5,10.541
293.0,10.497
293.5,10.494
294.0,10.518
294.5,10.552
295.0,10.547
295.5,10.550
296.0,10.552
296.5,10.585
297.0,10.604
297.5,10.612
298.0,10.591
298.5,10.595
299.0,10.561
299.5,10.577
300.0,10.569
300

Note: Examples/sample1.txt
Wavelength (nm),Absorbance
190.0,3.565
190.5,3.707
191.0,3.820
191.5,3.764
192.0,3.811
192.5,3.808
193.0,3.745
193.5,3.724
194.0,3.738
194.5,4.043
195.0,3.984
195.5,3.973
196.0,3.829
196.5,3.894
197.0,3.974
197.5,4.089
198.0,4.155
198.5,4.132
199.0,4.114
199.5,4.061
200.0,4.135
200.5,4.067
201.0,4.123
201.5,4.134
202.0,4.280
202.5,4.238
203.0,4.201
203.5,4.173
204.0,4.142
204.5,4.157
205.0,4.136
205.5,4.233
206.0,4.293
206.5,4.329
207.0,4.321
207.5,4.352
208.0,4.308
208.5,4.299
209.0,4.240
209.5,4.249
210.0,4.218
210.5,4.216
211.0,4.255
211.5,4.296
212.0,4.305
212.5,4.273
213.0,4.287
213.5,4.306
214.0,4.335
214.5,4.345
215.0,4.343
215.5,4.351
216.0,4.349
216.5,4.368
217.0,4.314
217.5,4.294
218.0,4.273
218.5,4.313
219.0,4.325
219.5,4.332
220.0,4.351
220.5,4.379
221.0,4.388
221.5,4.372
222.0,4.359
222.5,4.338
223.0,4.359
223.5,4.350
224.0,4.364
224.5,4.359
225.0,4.387
225.5,4.371
226.0,4.365
226.5,4.339
227.0,4.340
227.5,4.362
228.0,4.364
228.5,4.372
229.0,4.344
229.5,4.362
230.0,4.375
230.5,4.402
231.0,4.390
231.5,4.397
232.0,4.390
232.5,4.391
233.0,4.392
233.5,4.386
234.0,4.379
234.5,4.394
235.0,4.419
235.5,4.460
236.0,4.449
236.5,4.425
237.0,4.390
237.5,4.413
238.0,4.434
238.5,4.436
239.0,4.439
239.5,4.451
240.0,4.481
240.5,4.478
241.0,4.492
241.5,4.499
242.0,4.511
242.5,4.546
243.0,4.565
243.5,4.571
244.0,4.551
244.5,4.553
245.0,4.565
245.5,4.579
246.0,4.581
246.5,4.598
247.0,4.602
247.5,4.626
248.0,4.642
248.5,4.648
249.0,4.658
249.5,4.656
250.0,4.689
250.5,4.708
251.0,4.728
251.5,4.737
252.0,4.741
252.5,4.760
253.0,4.765
253.5,4.784
254.0,4.792
254.5,4.798
255.0,4.815
255.5,4.836
256.0,4.867
256.5,4.881
257.0,4.878
257.5,4.899
258.0,4.904
258.5,4.926
259.0,4.918
259.5,4.946
260.0,4.949
260.5,4.969
261.0,4.983
261.5,5.019
262.0,5.032
262.5,5.046
263.0,5.055
263.5,5.089
264.0,5.094
264.5,5.109
265.0,5.115
265.5,5.138
266.0,5.146
266.5,5.160
267.0,5.172
267.5,5.179
268.0,5.207
268.5,5.217
269.0,5.240
269.5,5.239
270.0,5.249
270.5,5.275
271.0,5.266
271.5,5.281
272.0,5.278
272.5,5.295
273.0,5.315
273.5,5.312
274.0,5.306
274.5,5.289
275.0,5.329
275.5,5.368
276.0,5.397
276.5,5.394
277.0,5.387
277.5,5.385
278.0,5.380
278.5,5.392
279.0,5.363
279.5,5.366
280.0,5.366
280.5,5.408
281.0,5.411
281.5,5.417
282.0,5.399
282.5,5.407
283.0,5.394
283.5,5.424
284.0,5.400
284.5,5.412
285.0,5.418
285.5,5.450
286.0,5.470
286.5,5.453
287.0,5.453
287.5,5.440
288.0,5.466
288.5,5.478
289.0,5.496
289.5,5.492
290.0,5.498
290.5,5.515
291.0,5.487
291.5,5.479
292.0,5.457
292.5,5.500
293.0,5.484
293.5,5.498
294.0,5.476
294.5,5.503
295.0,5.490
295.5,5.518
296.0,5.515
296.5,5.538
297.0,5.513
297.5,5.507
298.0,5.516
298.5,5.544
299.0,5.562
299.5,5.545
300.0,5.534
300.5,5.526
301.0,5.555
301.5,5.574
302.0,5.607
302.5,5.602
303.0,5.623
303.5,5.647
304.0,5.

Note: README.md
# Absorption_Tauc_plot
Plot absorption spectra and Tauc transformation for direct/indirect allowed transition based on UV-Vis absorption data

File: TiO2.txt
Wavelength (nm),Absorbance
190.0,6.383
192.5,7.291
195.0,7.640
197.5,8.392
200.0,7.956
202.5,8.139
205.0,8.392
207.5,8.399
210.0,8.478
212.5,8.458
215.0,8.396
217.5,8.525
220.0,8.455
222.5,8.470
225.0,8.365
227.5,8.313
230.0,8.246
232.5,8.165
235.0,8.124
237.5,8.170
240.0,8.144
242.5,8.044
245.0,7.949
247.5,7.972
250.0,8.029
252.5,7.905
255.0,7.935
257.5,7.989
260.0,7.989
262.5,8.075
265.0,8.024
267.5,8.107
270.0,8.109
272.5,8.138
275.0,8.193
277.5,8.221
280.0,8.235
282.5,8.232
285.0,8.332
287.5,8.389
290.0,8.396
292.5,8.469
295.0,8.534
297.5,8.587
300.0,8.667
302.5,8.740
305.0,8.719
307.5,8.883
310.0,8.783
312.5,8.892
315.0,8.923
317.5,8.922
320.0,8.899
322.5,8.814
325.0,8.850
327.5,8.769
330.0,8.676
332.5,8.561
335.0,8.444
337.5,8.223
340.0,7.977
342.5,7.637
345.0,7.147
347.5,6.673
350.0,6.081
352.5,5.395
355.0,4.773
357.5,4.157
360.0,3.603
362.5,3.105
365.0,2.676
367.5,2.324
370.0,2.015
372.5,1.720
375.0,1.466
377.5,1.242
380.0,1.039
382.5,0.849
385.0,0.693
387.5,0.560
390.0,0.441
392.5,0.343
395.0,0.264
397.5,0.201
400.0,0.151
402.5,0.113
405.0,0.082
407.5,0.058
410.0,0.041
412.5,0.029
415.0,0.020
417.5,0.013
420.0,0.009
422.5,0.005
425.0,0.003
427.5,0.002
430.0,0.001
432.5,0.000
435.0,0.000
437.5,0.000
440.0,0.000
442.5,0.000
445.0,0.000
447.5,0.001
450.0,0.001
452.5,0.001
455.0,0.001
457.5,0.002
460.0,0.002
462.5,0.002
465.0,0.002
467.5,0.002
470.0,0.003
472.5,0.003
475.0,0.003
477.5,0.003
480.0,0.003
482.5,0.003
485.0,0.003
487.5,0.003
490.0,0.003
492.5,0.004
495.0,0.004
497.5,0.004
500.0,0.004
502.5,0.004
505.0,0.004
507.5,0.004
510.0,0.004
512.5,0.004
515.0,0.004
517.5,0.004
520.0,0.004
522.5,0.004
525.0,0.004
527.5,0.004
530.0,0.004
532.5,0.004
535.0,0.004
537.5,0.004
540.0,0.004
542.5,0.004
545.0,0.004
547.5,0.004
550.0,0.005
552.5,0.005
555.0,0.005
557.5,0.005
560.0,0.005
562.5,0.005
565.0,0.005
567.5,0.005
570.0,0.005
572.5,0.005
575.0,0.005
577.5,0.005
580.0,0.005
582.5,0.005
585.0,0.005
587.5,0.005
590.0,0.005
592.5,0.005
595.0,0.005
597.5,0.005
600.0,0.005
602.5,0.005
605.0,0.005
607.5,0.005
610.0,0.005
612.5,0.005
615.0,0.005
617.5,0.005
620.0,0.005
622.5,0.005
625.0,0.005
627.5,0.005
630.0,0.005
632.5,0.005
635.0,0.005
637.5,0.005
640.0,0.005
642.5,0.005
645.0,0.005
647.5,0.005
650.0,0.005
652.5,0.006
655.0,0.005
657.5,0.006
660.0,0.006
662.5,0.006
665.0,0.006
667.5,0.006
670.0,0.006
672.5,0.006
675.0,0.006
677.5,0.006
680.0,0.006
682.5,0.006
685.0,0.006
687.5,0.006
690.0,0.006
692.5,0.006
695.0,0.006
697.5,0.006
700.0,0.006
702.5,0.006
705.0,0.006
707.5,0.006
710.0,0.006
712.5,0.006
715.0,0.006
717.5,0.006
720.0,0.006
722.5,0.006
725.0,0.006
727.5,0.006
730.0,0.006
732.5,0.006
735.0,0.006
737.5,0.006
740.0,0.006
742.5,0.006
745.0,0.005
747.5,0.006
750.0,0.005
752.5,0.005
755.0,0.005
757.5,0.005
760.0,0.005
762.5,0.005
765.0,0.005
767.5,0.005
770.0,0.005
772.5,0.005
775.0,0.005
777.5,0.005
780.0,0.005
782.5,0.005
785.0,0.005
787.5,0.005
790.0,0.005
792.5,0.005
795.0,0.005
797.5,0.005
800.0,0.005
802.5,0.005
805.0,0.005
807.5,0.005
810.0,0.005
812.5,0.005
815.0,0.005
817.5,0.005
820.0,0.005
822.5,0.005
825.0,0.005
827.5,0.005
830.0,0.005
832.5,0.005
835.0,0.005
837.5,0.005
840.0,0.005
842.5,0.005
845.0,0.004
847.5,0.005
850.0,0.005
852.5,0.004
855.0,0.005
857.5,0.005
860.0,0.005
862.5,0.005
865.0,0.005
867.5,0.005
870.0,0.004
872.5,0.005
875.0,0.004
877.5,0.004
880.0,0.003
882.5,0.004
885.0,0.005
887.5,0.002
890.0,0.003
892.5,0.003
895.0,0.005
897.5,0.005
900.0,0.003

File: TiO2_out.txt
Wavelength (nm),Absorbance,"Energy, eV",Direct transition,Indirect transition
190.0,6.383,6.52632,1735.35,6.45426
193.0,7.31,6.42487,2205.79,6.85316
196.0,8.003,6.32653,2563.52,7.11556
199.0,8.006,6.23116,2488.68,7.06305
202.0,8.052,6.13861,2443.14,7.03051
205.0,8.392,6.04878,2576.72,7.1247
208.0,8.387,5.96154,2499.94,7.07103
211.0,8.405,5.87678,2439.8,7.02811
214.0,8.494,5.79439,2422.37,7.01552
217.0,8.557,5.71429,2390.93,6.99265
220.0,8.455,5.63636,2271.04,6.90329
223.0,8.42,5.56054,2192.09,6.84249
226.0,8.31,5.48673,2078.88,6.75238
229.0,8.273,5.41485,2006.77,6.69306
232.0,8.193,5.34483,1917.58,6.61741
235.0,8.124,5.2766,1837.59,6.54729
238.0,8.158,5.21008,1806.58,6.5195
241.0,8.1,5.14523,1736.92,6.45572
244.0,7.991,5.08197,1649.17,6.3726
247.0,8.003,5.02024,1614.19,6.33853
250.0,8.029,4.96,1585.94,6.31061
253.0,7.931,4.90119,1510.98,6.23469
256.0,7.891,4.84375,1460.92,6.1824
259.0,7.989,4.78764,1462.95,6.18454
262.0,8.063,4.73282,1456.24,6.17744
265.0,8.024,4.67925,1409.72,6.1275
268.0,8.14,4.62687,1418.48,6.13699
271.0,8.136,4.57565,1385.88,6.10143
274.0,8.135,4.52555,1355.37,6.06756
277.0,8.2,4.47653,1347.45,6.05868
280.0,8.235,4.42857,1330.01,6.03898
283.0,8.297,4.38163,1321.64,6.02946
286.0,8.385,4.33566,1321.65,6.02947
289.0,8.403,4.29066,1299.92,6.00453
292.0,8.492,4.24658,1300.46,6.00516
295.0,8.534,4.20339,1286.78,5.9893
298.0,8.61,4.16107,1283.56,5.98555
301.0,8.686,4.1196,1280.41,5.98188
304.0,8.733,4.07895,1268.89,5.96837
307.0,8.839,4.03909,1274.6,5.97507
310.0,8.783,4.0,1234.26,5.92723
313.0,8.896,3.96166,1242.06,5.93658
316.0,8.938,3.92405,1230.13,5.92226
319.0,8.975,3.88715,1217.11,5.90653
322.0,8.842,3.85093,1159.4,5.83523
325.0,8.85,3.81538,1140.15,5.81087
328.0,8.732,3.78049,1089.74,5.74554
331.0,8.653,3.74622,1050.8,5.69351
334.0,8.476,3.71257,990.221,5.60962
337.0,8.282,3.67953,928.654,5.52031
340.0,7.977,3.64706,846.379,5.39375
343.0,7.57,3.61516,748.94,5.23133
346.0,6.98,3.58382,625.752,5.0015
349.0,6.31,3.55301,502.633,4.73492
352.0,5.524,3.52273,378.674,4.4113
355.0,4.773,3.49296,277.952,4.08312
358.0,4.039,3.46369,195.715,3.7403
361.0,3.404,3.4349,136.712,3.41942
364.0,2.846,3.40659,93.9962,3.11371
367.0,2.398,3.37875,65.6462,2.84644
370.0,2.015,3.35135,45.6026,2.59865
373.0,1.662,3.3244,30.5273,2.35056
376.0,1.372,3.29787,20.4727,2.12713
379.0,1.118,3.27177,13.3798,1.91255
382.0,0.886,3.24607,8.2715,1.69588
385.0,0.693,3.22078,4.98182,1.49399
388.0,0.533,3.19588,2.90158,1.30514
391.0,0.398,3.17136,1.59315,1.12348
394.0,0.294,3.14721,0.856142,0.961914
397.0,0.212,3.12343,0.438464,0.813736
400.0,0.151,3.1,0.219118,0.684178
403.0,0.106,3.07692,0.106376,0.571099
406.0,0.072,3.05419,0.0483567,0.468937
409.0,0.048,3.03178,0.0211777,0.381478
412.0,0.031,3.00971,0.00870507,0.305452
415.0,0.02,2.98795,0.00357114,0.244457
418.0,0.012,2.96651,0.00126722,0.188675
421.0,0.007,2.94537,0.000425084,0.143588
424.0,0.004,2.92453,0.000136846,0.108158
427.0,0.002,2.90398,3.37324e-05,0.07621
430.0,0.001,2.88372,8.31585e-06,0.0537003
433.0,0.0,2.86374,0.0,0.0
436.0,0.0,2.84404,0.0,0.0
439.0,0.0,2.8246,0.0,0.0
442.0,0.0,2.80543,0.0,0.0
445.0,0.0,2.78652,0.0,0.0
448.0,0.001,2.76786,7.66103e-06,0.0526104
451.0,0.001,2.74945,7.55945e-06,0.0524352
454.0,0.001,2.73128,7.45988e-06,0.0522616
457.0,0.001,2.71335,7.36226e-06,0.0520898
460.0,0.002,2.69565,2.90662e-05,0.0734255
463.0,0.002,2.67819,2.86907e-05,0.0731872
466.0,0.002,2.66094,2.83225e-05,0.0729513
469.0,0.002,2.64392,2.79613e-05,0.0727176
472.0,0.003,2.62712,6.21158e-05,0.088777
475.0,0.003,2.61053,6.13336e-05,0.0884962
478.0,0.003,2.59414,6.05662e-05,0.0882181
481.0,0.003,2.57796,5.9813e-05,0.0879425
484.0,0.003,2.56198,5.90738e-05,0.0876696
487.0,0.003,2.5462,5.83483e-05,0.0873991
490.0,0.003,2.53061,5.7636e-05,0.0871311
493.0,0.004,2.51521,0.000101221,0.100304
496.0,0.004,2.5,0.0001,0.1
499.0,0.004,2.48497,9.88012e-05,0.0996989
502.0,0.004,2.47012,9.76238e-05,0.0994006
505.0,0.004,2.45545,9.64674e-05,0.0991049
508.0,0.004,2.44094,9.53314e-05,0.0988118
511.0,0.004,2.42661,9.42153e-05,0.0985214
514.0,0.004,2.41245,9.31187e-05,0.0982334
517.0,0.004,2.39845,9.20412e-05,0.097948
520.0,0.004,2.38462,9.09822e-05,0.097665
523.0,0.004,2.37094,8.99415e-05,0.0973845
526.0,0.004,2.35741,8.89184e-05,0.0971064
529.0,0.004,2.34405,8.79128e-05,0.0968307
532.0,0.004,2.33083,8.69241e-05,0.0965573
535.0,0.004,2.31776,8.5952e-05,0.0962862
538.0,0.004,2.30483,8.49961e-05,0.0960173
541.0,0.004,2.29205,8.4056e-05,0.0957508
544.0,0.004,2.27941,8.31315e-05,0.0954864
547.0,0.004,2.26691,8.22221e-05,0.0952242
550.0,0.005,2.25455,0.000127074,0.106173
553.0,0.004,2.24231,8.04476e-05,0.0947062
556.0,0.004,2.23022,7.95818e-05,0.0944503
559.0,0.005,2.21825,0.000123015,0.105315
562.0,0.005,2.20641,0.000121706,0.105033
565.0,0.005,2.19469,0.000120417,0.104754
568.0,0.005,2.1831,0.000119148,0.104477
571.0,0.005,2.17163,0.000117899,0.104202
574.0,0.005,2.16028,0.00011667,0.10393
577.0,0.005,2.14905,0.00011546,0.103659
580.0,0.005,2.13793,0.000114269,0.103391
583.0,0.005,2.12693,0.000113096,0.103124
586.0,0.005,2.11604,0.000111941,0.10286
589.0,0.005,2.10526,0.000110803,0.102598
592.0,0.005,2.09459,0.000109683,0.102338
595.0,0.005,2.08403,0.00010858,0.102079
598.0,0.005,2.07358,0.000107493,0.101823
601.0,0.005,2.06323,0.000106423,0.101568
604.0,0.005,2.05298,0.000105368,0.101316
607.0,0.005,2.04283,0.000104329,0.101065
610.0,0.005,2.03279,0.000103306,0.100816
613.0,0.005,2.02284,0.000102297,0.100569
616.0,0.005,2.01299,0.000101303,0.100324
619.0,0.005,2.00323,0.000100323,0.100081
622.0,0.005,1.99357,9.93579e-05,0.0998391
625.0,0.005,1.984,9.84064e-05,0.0995992
628.0,0.005,1.97452,9.74685e-05,0.099361
631.0,0.005,1.96513,9.65439e-05,0.0991245
634.0,0.005,1.95584,9.56324e-05,0.0988897
637.0,0.005,1.94662,9.47337e-05,0.0986566
640.0,0.005,1.9375,9.38477e-05,0.0984251
643.0,0.005,1.92846,9.2974e-05,0.0981952
646.0,0.005,1.9195,9.21125e-05,0.0979669
649.0,0.005,1.91063,9.12628e-05,0.0977403
652.0,0.005,1.90184,9.04249e-05,0.0975151
655.0,0.005,1.89313,8.95985e-05,0.0972916
658.0,0.006,1.8845,0.000127848,0.106334
661.0,0.006,1.87595,0.00012669,0.106093
664.0,0.006,1.86747,0.000125548,0.105853
667.0,0.006,1.85907,0.000124421,0.105615
670.0,0.006,1.85075,0.000123309,0.105378
673.0,0.006,1.8425,0.000122213,0.105143
676.0,0.006,1.83432,0.00012113,0.104909
679.0,0.006,1.82622,0.000120062,0.104677
682.0,0.006,1.81818,0.000119008,0.104447
685.0,0.006,1.81022,0.000117968,0.104218
688.0,0.006,1.80233,0.000116942,0.10399
691.0,0.006,1.7945,0.000115928,0.103764
694.0,0.006,1.78674,0.000114928,0.10354
697.0,0.006,1.77905,0.000113941,0.103317
700.0,0.006,1.77143,0.000112967,0.103095
703.0,0.006,1.76387,0.000112004,0.102875
706.0,0.006,1.75637,0.000111055,0.102656
709.0,0.006,1.74894,0.000110117,0.102439
712.0,0.006,1.74157,0.000109191,0.102222
715.0,0.006,1.73427,0.000108276,0.102008
718.0,0.006,1.72702,0.000107373,0.101794
721.0,0.006,1.71983,0.000106482,0.101582
724.0,0.006,1.71271,0.000105601,0.101372
727.0,0.006,1.70564,0.000104731,0.101162
730.0,0.006,1.69863,0.000103872,0.100954
733.0,0.006,1.69168,0.000103024,0.100748
736.0,0.006,1.68478,0.000102186,0.100542
739.0,0.005,1.67794,7.03873e-05,0.0915954
742.0,0.005,1.67116,6.98193e-05,0.09141
745.0,0.005,1.66443,6.92581e-05,0.0912258
748.0,0.006,1.65775,9.89333e-05,0.0997323
751.0,0.005,1.65113,6.81559e-05,0.0908607
754.0,0.006,1.64456,9.73651e-05,0.0993347
757.0,0.005,1.63804,6.70798e-05,0.0904999
760.0,0.005,1.63158,6.65512e-05,0.0903211
763.0,0.005,1.62516,6.60289e-05,0.0901433
766.0,0.005,1.6188,6.55128e-05,0.0899666
769.0,0.005,1.61248,6.50026e-05,0.089791
772.0,0.005,1.60622,6.44984e-05,0.0896163
775.0,0.005,1.6,6.4e-05,0.0894427
778.0,0.005,1.59383,6.35074e-05,0.0892701
781.0,0.005,1.58771,6.30204e-05,0.0890985
784.0,0.005,1.58163,6.2539e-05,0.0889279
787.0,0.005,1.5756,6.20632e-05,0.0887582
790.0,0.005,1.56962,6.15927e-05,0.0885895
793.0,0.005,1.56368,6.11276e-05,0.0884218
796.0,0.005,1.55779,6.06677e-05,0.088255
799.0,0.005,1.55194,6.02129e-05,0.0880892
802.0,0.005,1.54613,5.97633e-05,0.0879242
805.0,0.005,1.54037,5.93187e-05,0.0877603
808.0,0.005,1.53465,5.8879e-05,0.0875972
811.0,0.005,1.52898,5.84442e-05,0.087435
814.0,0.005,1.52334,5.80142e-05,0.0872738
817.0,0.005,1.51775,5.7589e-05,0.0871134
820.0,0.005,1.5122,5.71684e-05,0.0869539
823.0,0.005,1.50668,5.67523e-05,0.0867952
826.0,0.005,1.50121,5.63408e-05,0.0866375
829.0,0.005,1.49578,5.59338e-05,0.0864806
832.0,0.005,1.49038,5.55312e-05,0.0863245
835.0,0.005,1.48503,5.51328e-05,0.0861693
838.0,0.005,1.47971,5.47388e-05,0.0860149
841.0,0.005,1.47444,5.4349e-05,0.0858614
844.0,0.005,1.46919,5.39633e-05,0.0857086
847.0,0.005,1.46399,5.35817e-05,0.0855567
850.0,0.005,1.45882,5.32042e-05,0.0854056
853.0,0.004,1.45369,3.38116e-05,0.0762546
856.0,0.005,1.4486,5.24609e-05,0.0851058
859.0,0.005,1.44354,5.20951e-05,0.084957
862.0,0.005,1.43852,5.17331e-05,0.0848091
865.0,0.005,1.43353,5.13749e-05,0.0846619
868.0,0.004,1.42857,3.26531e-05,0.0755929
871.0,0.004,1.42365,3.24285e-05,0.0754626
874.0,0.003,1.41876,1.8116e-05,0.0652403
877.0,0.004,1.41391,3.19863e-05,0.075204
880.0,0.003,1.40909,1.78698e-05,0.0650175
883.0,0.004,1.4043,3.15531e-05,0.0749481
886.0,0.005,1.39955,4.89684e-05,0.0836525
889.0,0.004,1.39483,3.11286e-05,0.0746947
892.0,0.004,1.39013,3.09196e-05,0.074569
895.0,0.005,1.38547,4.79885e-05,0.0832308
898.0,0.005,1.38085,4.76684e-05,0.0830917
900.0,0.003,1.37778,1.70844e-05,0.064291